Folder: materials-zone-api-examples/examples/quantum_dot_api_example/measurements (part 2)

File: experiment_05_measurement.csv
Wavelength (nm),Intensity (a.u.)
400.0,-10.62
401.003,3.89734
402.007,-4.29339
403.01,-3.61292
404.013,-4.82104
405.017,-6.75888
406.02,-12.9724
407.023,-4.12308
408.027,-1.27751
409.03,0.536759
410.033,-3.3703
411.037,-0.272986
412.04,7.73079
413.043,-3.6325
414.047,-5.59802
415.05,-2.40415
416.054,-8.09592
417.057,-1.05563
418.06,-2.11234
419.064,-4.54746
420.067,0.137824
421.07,-5.88436
422.074,2.13449
423.077,2.19307
424.08,11.0909
425.084,2.41966
426.087,-1.62596
427.09,-1.76464
428.094,7.89971
429.097,2.82669
430.1,-9.92507
431.104,7.02468
432.107,-0.232955
433.11,1.67792
434.114,-0.327098
435.117,-3.67115
436.12,8.91129
437.124,2.4393
438.127,12.9509
439.13,-4.52428
440.134,-2.72176
441.137,3.79197
442.14,3.30382
443.144,10.7671
444.147,1.34673
445.151,5.97017
446.154,11.8352
447.157,18.0291
448.161,10.2749
449.164,7.23346
450.167,1.90763
451.171,7.04549
452.174,12.5243
453.177,13.8391
454.181,18.7317
455.184,9.19992
456.187,16.9631
457.191,22.9163
458.194,22.0747
459.197,27.7933
460.201,34.2315
461.204,34.6371
462.207,34.2476
463.211,36.8219
464.214,42.0555
465.217,42.9306
466.221,45.0951
467.224,46.2078
468.227,48.3629
469.231,68.4694
470.234,58.6791
471.237,74.7504
472.241,84.985
473.244,77.2424
474.247,90.6852
475.251,88.8683
476.254,97.5745
477.258,114.214
478.261,113.928
479.264,118.073
480.268,118.398
481.271,136.549
482.274,141.581
483.278,160.826
484.281,156.754
485.284,164.546
486.288,170.475
487.291,186.02
488.294,185.247
489.298,191.84
490.301,200.562
491.304,207.997
492.308,217.907
493.311,220.009
494.314,228.385
495.318,241.256
496.321,239.442
497.324,252.367
498.328,250.28
499.331,260.955
500.334,259.056
501.338,274.131
502.341,266.925
503.344,268.88
504.348,262.785
505.351,282.216
506.355,272.332
507.358,278.921
508.361,282.903
509.365,277.998
510.368,280.408
511.371,281.27
512.375,281.53
513.378,278.576
514.381,261.409
515.385,261.83
516.388,275.114
517.391,264.247
518.395,257.542
519.398,250.109
520.401,241.614
521.405,245.045
522.408,222.447
523.411,230.861
524.415,217.928
525.418,204.861
526.421,211.554
527.425,194.086
528.428,192.769
529.431,176.756
530.435,187.781
531.438,176.12
532.441,158.359
533.445,153.736
534.448,143.862
535.452,144.366
536.455,131.397
537.458,125.106
538.462,107.522
539.465,103.514
540.468,105.079
541.472,101.753
542.475,96.4493
543.478,80.5816
544.482,78.103
545.485,79.1554
546.488,73.892
547.492,66.4068
548.495,59.0598
549.498,56.6218
550.502,50.6293
551.505,51.8595
552.508,45.8428
553.512,45.4909
554.515,27.4397
555.518,37.1992
556.522,30.7744
557.525,33.3387
558.528,31.2865
559.532,19.2732
560.535,24.7804
561.538,24.7608
562.542,27.0253
563.545,15.8568
564.548,21.3406
565.552,8.18636
566.555,5.21266
567.559,9.54333
568.562,13.5543
569.565,9.56547
570.569,13.0074
571.572,3.02911
572.575,18.4456
573.579,6.75789
574.582,4.77144
575.585,5.05146
576.589,6.12361
577.592,5.73796
578.595,1.08428
579.599,-3.75776
580.602,-2.12636
581.605,1.56946
582.609,8.61622
583.612,1.78403
584.615,-2.47833
585.619,-0.427708
586.622,5.87944
587.625,6.92376
588.629,-9.62935
589.632,6.9286
590.635,6.21026
591.639,-1.91434
592.642,8.72692
593.645,0.819057
594.649,-3.81538
595.652,-1.12133
596.656,-3.37158
597.659,6.57808
598.662,4.97072
599.666,-1.59332
600.669,8.7304
601.672,9.75755
602.676,8.59891
603.679,-3.20294
604.682,-8.82522
605.686,3.75593
606.689,-10.6085
607.692,0.0334303
608.696,0.113016
609.699,5.76362
610.702,0.554293
611.706,-3.714
612.709,-3.56993
613.712,1.01356
614.716,-5.0711
615.719,-0.683512
616.722,-10.4678
617.726,-3.71783
618.729,0.0832444
619.732,-2.4451
620.736,-9.69378
621.739,-6.69487
622.742,-3.46991
623.746,-2.72689
624.749,5.17392
625.753,0.881883
626.756,-0.0890202
627.759,-5.83572
628.763,-3.72753
629.766,-8.32905
630.769,-9.6048
631.773,6.44991
632.776,1.16639
633.779,-1.74253
634.783,8.85177
635.786,3.99694
636.789,0.0328066
637.793,-2.80031
638.796,-3.62546
639.799,0.0634557
640.803,7.74829
641.806,11.2485
642.809,-1.36402
643.813,4.64334
644.816,-4.66545
645.819,2.30184
646.823,3.3873
647.826,-0.911822
648.829,-1.13888
649.833,4.37828
650.836,1.13163
651.839,-9.0025
652.843,-3.07406
653.846,-3.36364
654.849,-6.33864
655.853,1.02933
656.856,-4.627
657.86,6.00922
658.863,-0.15226
659.866,-1.53371
660.87,8.95372
661.873,-0.331717
662.876,-3.99538
663.88,6.65005
664.883,-2.80317
665.886,-4.88743
666.89,0.128716
667.893,-2.87289
668.896,6.50769
669.9,6.30278
670.903,1.76274
671.906,4.03875
672.91,3.53857
673.913,4.64882
674.916,-1.08947
675.92,2.1667
676.923,3.84607
677.926,-6.46397
678.93,8.20655
679.933,-0.962097
680.936,-1.86986
681.94,5.60877
682.943,6.00107
683.946,0.866001
684.95,-7.05471
685.953,0.649517
686.957,5.498
687.96,-2.60854
688.963,-1.11442
689.967,6.32586
690.97,3.83326
691.973,11.6312
692.977,7.40201
693.98,1.23132
694.983,7.96959
695.987,4.14944
696.99,-4.7552
697.993,-7.52083
698.997,5.75088
700.0,1.62193

File: experiment_06_measurement.csv
Wavelength (nm),Intensity (a.u.)
400.0,-7.67148
401.003,1.46538
402.007,-0.162013
403.01,0.0807175
404.013,7.25749
405.017,4.35139
406.02,-0.404792
407.023,2.07313
408.027,0.20019
409.03,4.98101
410.033,7.31111
411.037,3.45381
412.04,2.11756
413.043,3.53386
414.047,-4.55649
415.05,-1.15749
416.054,-6.72156
417.057,0.239995
418.06,5.16197
419.064,-2.72129
420.067,0.0642322
421.07,-4.63283
422.074,2.27378
423.077,-3.80554
424.08,-2.67311
425.084,-0.263232
426.087,0.257038
427.09,-0.436518
428.094,-1.57959
429.097,3.29078
430.1,-5.62164
431.104,7.4573
432.107,-4.43388
433.11,-1.24546
434.114,0.308663
435.117,-2.82398
436.12,-2.98109
437.124,-5.10884
438.127,1.51771
439.13,-6.24746
440.134,9.64354
441.137,1.10836
442.14,1.0811
443.144,-3.3321
444.147,4.01556
445.151,0.440772
446.154,1.41434
447.157,-7.717
448.161,0.223697
449.164,8.24882
450.167,-0.880561
451.171,-2.3522
452.174,-0.270313
453.177,4.09004
454.181,-1.72951
455.184,-4.27533
456.187,-4.75048
457.191,-7.14731
458.194,4.30209
459.197,5.28827
460.201,-1.38651
461.204,2.66984
462.207,-5.33712
463.211,-0.27768
464.214,6.06367
465.217,3.08307
466.221,-1.73533
467.224,9.62202
468.227,10.8489
469.231,10.4515
470.234,1.39472
471.237,8.84788
472.241,-3.60827
473.244,4.18393
474.247,3.0108
475.251,4.03563
476.254,-2.86743
477.258,8.03366
478.261,6.14503
479.264,1.38715
480.268,5.51078
481.271,0.451071
482.274,0.00632157
483.278,3.191
484.281,2.10847
485.284,2.49667
486.288,-1.7717
487.291,4.64388
488.294,2.17274
489.298,-6.18653
490.301,-6.01912
491.304,5.53889
492.308,5.08816
493.311,-5.98251
494.314,-3.08979
495.318,4.21712
496.321,-3.43433
497.324,-3.07411
498.328,3.197
499.331,-3.97261
500.334,-0.284642
501.338,-6.62104
502.341,-6.45743
503.344,0.434053
504.348,-2.33425
505.351,4.85081
506.355,-1.31288
507.358,0.998788
508.361,7.075
509.365,2.45442
510.368,-3.75975
511.371,-5.23973
512.375,-1.78739
513.378,-3.77308
514.381,-1.67249
515.385,-8.13315
516.388,4.34289
517.391,-6.26479
518.395,2.68519
519.398,0.64604
520.401,5.2474
521.405,6.65092
522.408,-0.4185
523.411,3.22119
524.415,-1.36642
525.418,6.74887
526.421,3.4958
527.425,6.19498
528.428,0.511862
529.431,3.12291
530.435,-5.16226
531.438,-2.36061
532.441,-0.391581
533.445,-4.56982
534.448,3.08465
535.452,-3.70957
536.455,4.75289
537.458,-4.10241
538.462,0.623121
539.465,6.73836
540.468,10.2883
541.472,-3.59552
542.475,0.925966
543.478,-3.49846
544.482,-3.79202
545.485,-9.73754
546.488,0.971472
547.492,-4.13926
548.495,-4.7227
549.498,2.53537
550.502,-4.57971
551.505,-7.0333
552.508,5.93145
553.512,0.0215637
554.515,-5.15663
555.518,4.41558
556.522,2.53654
557.525,2.47177
558.528,8.71907
559.532,-2.55113
560.535,-5.62107
561.538,0.543092
562.542,0.46458
563.545,3.26975
564.548,1.39736
565.552,-1.61079
566.555,-0.530791
567.559,-2.34641
568.562,-1.21372
569.565,-0.018021
570.569,-5.98655
571.572,5.92361
572.575,3.71689
573.579,2.99237
574.582,9.32277
575.585,3.46259
576.589,4.8452
577.592,9.91372
578.595,10.618
579.599,8.23716
580.602,23.9026
581.605,4.28656
582.609,26.0619
583.612,33.6074
584.615,40.2422
585.619,35.3485
586.622,31.4417
587.625,49.4936
588.629,68.4963
589.632,72.4445
590.635,67.2439
591.639,86.3628
592.642,98.2172
593.645,108.361
594.649,124.881
595.652,140.666
596.656,146.474
597.659,165.29
598.662,177.061
599.666,196.932
600.669,213.044
601.672,233.279
602.676,254.73
603.679,267.55
604.682,274.433
605.686,306.872
606.689,320.743
607.692,341.568
608.696,355.088
609.699,365.884
610.702,385.596
611.706,398.578
612.709,398.757
613.712,410.733
614.716,418.376
615.719,421.852
616.722,425.743
617.726,426.426
618.729,436.946
619.732,428.954
620.736,412.077
621.739,424.031
622.742,406.675
623.746,405.594
624.749,370.519
625.753,377.196
626.756,353.247
627.759,335.659
628.763,317.608
629.766,303.324
630.769,289.105
631.773,272.188
632.776,245.568
633.779,228.967
634.783,221.21
635.786,193.472
636.789,184.492
637.793,164.686
638.796,148.87
639.799,129.709
640.803,119.529
641.806,113.069
642.809,101.34
643.813,89.3271
644.816,79.799
645.819,66.9539
646.823,47.2789
647.826,51.1062
648.829,46.5177
649.833,38.4334
650.836,35.7379
651.839,32.2043
652.843,17.4597
653.846,21.7031
654.849,11.5601
655.853,28.3978
656.856,7.9273
657.86,2.38021
658.863,5.12609
659.866,1.25376
660.87,6.94306
661.873,7.30051
662.876,5.56833
663.88,3.87017
664.883,6.60148
665.886,0.427612
666.89,-3.93892
667.893,8.18238
668.896,8.24896
669.9,3.42498
670.903,5.09501
671.906,3.23138
672.91,-5.18069
673.913,-0.241729
674.916,-4.47752
675.92,-2.78554
676.923,-9.71047
677.926,2.20473
678.93,11.4074
679.933,-2.64103
680.936,-7.87818
681.94,2.69522
682.943,-3.71729
683.946,1.93677
684.95,6.92784
685.953,3.24557
686.957,-5.90753
687.96,8.54503
688.963,0.492837
689.967,-2.1986
690.97,-2.82027
691.973,-1.17429
692.977,-3.97631
693.98,-7.02305
694.983,1.99983
695.987,-7.21036
696.99,4.62402
697.993,8.08212
698.997,-5.47787
700.0,-4.6129

File: experiment_07_measurement.csv
Wavelength (nm),Intensity (a.u.)
400.0,-4.12726
401.003,-1.58912
402.007,-1.60142
403.01,10.3213
404.013,5.22482
405.017,5.55066
406.02,2.05394
407.023,3.75828
408.027,8.58336
409.03,-0.874914
410.033,-0.122337
411.037,-2.0431
412.04,-0.120893
413.043,0.264083
414.047,6.53948
415.05,-4.52857
416.054,7.35104
417.057,-8.68578
418.06,4.33279
419.064,-1.1817
420.067,1.9547
421.07,-4.80337
422.074,-0.273756
423.077,1.11798
424.08,3.25223
425.084,6.9265
426.087,-1.79356
427.09,6.96271
428.094,8.22289
429.097,-0.279386
430.1,1.57887
431.104,-3.5742
432.107,-4.22811
433.11,3.79113
434.114,4.10079
435.117,2.0299
436.12,-1.67988
437.124,-11.057
438.127,1.0429
439.13,5.80737
440.134,-0.703566
441.137,-4.41671
442.14,7.02605
443.144,-5.96462
444.147,-3.96504
445.151,-5.09289
446.154,10.5569
447.157,-1.00059
448.161,6.24609
449.164,0.372245
450.167,2.38124
451.171,6.48692
452.174,-1.52897
453.177,5.62696
454.181,-1.99125
455.184,-5.12464
456.187,3.59572
457.191,1.11544
458.194,-1.57193
459.197,2.88089
460.201,0.637904
461.204,8.40496
462.207,2.29172
463.211,4.03867
464.214,-3.96785
465.217,1.88778
466.221,5.43099
467.224,3.50579
468.227,-2.48693
469.231,-4.17755
470.234,0.416745
471.237,5.64284
472.241,6.69152
473.244,2.57002
474.247,-8.12577
475.251,7.56895
476.254,6.76906
477.258,4.87492
478.261,12.8258
479.264,14.4159
480.268,5.23552
481.271,18.1561
482.274,10.5458
483.278,18.7455
484.281,17.7702
485.284,23.2666
486.288,22.4062
487.291,22.1548
488.294,29.5619
489.298,42.8802
490.301,42.2993
491.304,47.5894
492.308,56.8902
493.311,51.9131
494.314,68.0482
495.318,70.6535
496.321,87.1497
497.324,94.1701
498.328,100.086
499.331,112.119
500.334,130.792
501.338,130.804
502.341,133.49
503.344,146.675
504.348,155.145
505.351,174.391
506.355,180.546
507.358,187.423
508.361,196.659
509.365,216.369
510.368,213.925
511.371,222.87
512.375,232.862
513.378,243.958
514.381,245.611
515.385,253.611
516.388,246.775
517.391,262.05
518.395,259.096
519.398,256.224
520.401,250.415
521.405,249.181
522.408,244.596
523.411,249.431
524.415,241.343
525.418,240.124
526.421,225.858
527.425,227.719
528.428,212.608
529.431,212.375
530.435,204.157
531.438,188.282
532.441,173.38
533.445,172.08
534.448,153.959
535.452,154.205
536.455,134.37
537.458,134.627
538.462,117.179
539.465,109.723
540.468,109.401
541.472,95.3115
542.475,79.2939
543.478,73.4661
544.482,72.0646
545.485,67.8955
546.488,62.3753
547.492,47.7666
548.495,50.8142
549.498,36.8935
550.502,37.4492
551.505,28.0048
552.508,20.4919
553.512,23.5053
554.515,17.4992
555.518,12.2965
556.522,17.5503
557.525,9.37683
558.528,17.5125
559.532,9.97193
560.535,15.1617
561.538,5.48592
562.542,-0.312594
563.545,10.1811
564.548,4.13156
565.552,3.94728
566.555,-1.63306
567.559,3.78128
568.562,-5.46827
569.565,1.93862
570.569,7.54565
571.572,0.0223343
572.575,-7.40026
573.579,-6.82241
574.582,-0.245665
575.585,-2.22944
576.589,-2.07372
577.592,-0.756614
578.595,5.49824
579.599,1.60859
580.602,1.40704
581.605,-7.48384
582.609,-3.16608
583.612,-2.7842
584.615,1.7926
585.619,2.54391
586.622,0.128021
587.625,-0.489994
588.629,-0.430509
589.632,-3.62645
590.635,3.21547
591.639,-1.07654
592.642,-4.41114
593.645,-3.76426
594.649,1.14313
595.652,0.117383
596.656,0.62749
597.659,-1.60688
598.662,-10.3079
599.666,5.68172
600.669,2.5389
601.672,1.79292
602.676,5.52115
603.679,0.765136
604.682,-6.15927
605.686,2.86505
606.689,10.7025
607.692,-0.30865
608.696,-2.0136
609.699,-0.814606
610.702,-2.71138
611.706,0.357935
612.709,-5.99688
613.712,2.49125
614.716,-1.59121
615.719,12.0651
616.722,-5.0052
617.726,13.6843
618.729,-6.32147
619.732,8.62926
620.736,-0.218518
621.739,-1.44488
622.742,2.34726
623.746,1.83794
624.749,9.86647
625.753,5.65023
626.756,3.41213
627.759,4.2326
628.763,-4.88839
629.766,-2.74027
630.769,-0.6944
631.773,5.39161
632.776,-5.41709
633.779,-1.069
634.783,3.97532
635.786,-3.92336
636.789,0.750342
637.793,-1.88243
638.796,2.10004
639.799,7.25622
640.803,-3.89232
641.806,7.61287
642.809,-3.99441
643.813,4.12975
644.816,-4.00886
645.819,-5.15767
646.823,-4.57445
647.826,-8.30145
648.829,-7.38796
649.833,14.7257
650.836,2.49511
651.839,4.71172
652.843,7.43649
653.846,-0.56066
654.849,-5.34752
655.853,4.52213
656.856,-5.78837
657.86,-1.19834
658.863,-8.88164
659.866,7.24003
660.87,-4.81848
661.873,-4.29135
662.876,-1.53631
663.88,-2.5791
664.883,-3.2148
665.886,1.53617
666.89,-2.7067
667.893,-0.785396
668.896,-0.0462273
669.9,-8.62266
670.903,8.42131
671.906,-10.7493
672.91,-5.57196
673.913,3.37276
674.916,0.213227
675.92,-1.09238
676.923,3.21408
677.926,-7.30876
678.93,0.638203
679.933,9.54807
680.936,2.95688
681.94,7.71552
682.943,3.79453
683.946,8.17739
684.95,1.92103
685.953,1.49228
686.957,7.41803
687.96,-2.54644
688.963,4.00867
689.967,1.27828
690.97,-4.63473
691.973,-1.64281
692.977,-1.32669
693.98,1.28879
694.983,7.25023
695.987,-4.21678
696.99,4.71994
697.993,0.617952
698.997,-1.30929
700.0,-0.2152

File: experiment_08_measurement.csv
Wavelength (nm),Intensity (a.u.)
400.0,-1.17672
401.003,-2.02361
402.007,7.51753
403.01,1.16388
404.013,-0.482966
405.017,4.33652
406.02,-3.87166
407.023,6.70418
408.027,4.25175
409.03,3.42211
410.033,-2.52634
411.037,5.59865
412.04,-0.0865719
413.043,-3.63897
414.047,-5.98809
415.05,1.44034
416.054,-1.99634
417.057,0.335565
418.06,3.16824
419.064,0.255079
420.067,-4.72896
421.07,-5.04069
422.074,6.978
423.077,-1.38738
424.08,-2.94858
425.084,-1.37678
426.087,-5.96119
427.09,-5.19144
428.094,-14.5482
429.097,7.13662
430.1,0.222686
431.104,-4.29971
432.107,-1.66778
433.11,0.997089
434.114,6.82748
435.117,0.910832
436.12,4.86816
437.124,0.951161
438.127,-0.694072
439.13,-0.763235
440.134,-2.32061
441.137,1.83597
442.14,-3.42339
443.144,-4.94179
444.147,-8.40962
445.151,-5.14971
446.154,7.21928
447.157,-3.86554
448.161,2.06097
449.164,4.32502
450.167,10.9393
451.171,-10.8421
452.174,3.13891
453.177,8.97596
454.181,4.78793
455.184,-4.8077
456.187,0.186471
457.191,-11.6928
458.194,0.160305
459.197,2.07027
460.201,-0.243463
461.204,-9.03584
462.207,11.4556
463.211,-2.94571
464.214,9.09559
465.217,16.5149
466.221,0.535385
467.224,2.88948
468.227,-4.47277
469.231,3.29049
470.234,5.44261
471.237,-3.48314
472.241,8.48361
473.244,9.32656
474.247,-0.813854
475.251,3.91204
476.254,-2.72264
477.258,8.67876
478.261,5.69649
479.264,3.81362
480.268,7.15546
481.271,11.235
482.274,10.1125
483.278,6.03734
484.281,9.17173
485.284,15.8514
486.288,14.5621
487.291,15.34
488.294,21.1054
489.298,16.1944
490.301,21.6549
491.304,26.9361
492.308,18.9461
493.311,30.1549
494.314,46.7677
495.318,41.0356
496.321,44.4291
497.324,49.867
498.328,57.1268
499.331,59.2715
500.334,65.7535
501.338,73.8333
502.341,73.3879
503.344,89.4999
504.348,99.2705
505.351,95.9695
506.355,104.837
507.358,106.721
508.361,124.99
509.365,130.556
510.368,141.899
511.371,154.164
512.375,147.83
513.378,167.37
514.381,183.338
515.385,186.252
516.388,186.077
517.391,201.584
518.395,202.023
519.398,215.982
520.401,218.069
521.405,232.256
522.408,233.853
523.411,243.582
524.415,240.043
525.418,249.526
526.421,254.817
527.425,254.441
528.428,259.534
529.431,271.383
530.435,261.4
531.438,266.266
532.441,267.119
533.445,273.598
534.448,259.495
535.452,257.565
536.455,254.352
537.458,251.386
538.462,250.437
539.465,243.667
540.468,245.987
541.472,235.423
542.475,222.789
543.478,217.966
544.482,209.429
545.485,195.884
546.488,198.346
547.492,185.175
548.495,170.981
549.498,172.131
550.502,161.378
551.505,159.18
552.508,139.332
553.512,127.908
554.515,126.766
555.518,122.782
556.522,117.035
557.525,106.985
558.528,89.9944
559.532,96.3438
560.535,78.3367
561.538,66.255
562.542,72.9744
563.545,60.52
564.548,48.7628
565.552,44.9528
566.555,45.2133
567.559,44.6934
568.562,36.1517
569.565,36.1041
570.569,30.4873
571.572,22.3916
572.575,19.745
573.579,23.3474
574.582,12.6053
575.585,13.772
576.589,13.6419
577.592,26.0293
578.595,7.90654
579.599,6.92709
580.602,10.4161
581.605,10.0715
582.609,12.6923
583.612,11.9448
584.615,11.8823
585.619,7.12612
586.622,-0.186573
587.625,-1.1458
588.629,-0.654569
589.632,7.53101
590.635,6.84869
591.639,4.03522
592.642,3.91325
593.645,3.20793
594.649,0.0254354
595.652,-1.36549
596.656,7.85655
597.659,0.690272
598.662,-3.76146
599.666,-1.66718
600.669,-0.341825
601.672,5.89096
602.676,-10.7178
603.679,-1.20617
604.682,-6.61566
605.686,6.55637
606.689,2.32712
607.692,6.70328
608.696,-1.35194
609.699,7.57229
610.702,-0.448162
611.706,-0.360202
612.709,0.26389
613.712,-2.15851
614.716,1.06762
615.719,-1.44325
616.722,10.9397
617.726,-7.35622
618.729,0.951259
619.732,-6.72734
620.736,-6.43623
621.739,8.51154
622.742,1.51484
623.746,1.23595
624.749,3.42136
625.753,0.502965
626.756,2.92702
627.759,13.8733
628.763,0.778545
629.766,0.778633
630.769,-1.48397
631.773,-7.44907
632.776,2.61194
633.779,-0.326155
634.783,0.724438
635.786,-2.02022
636.789,-6.02905
637.793,-5.08582
638.796,0.658344
639.799,-0.344736
640.803,-2.72529
641.806,2.61118
642.809,-4.16887
643.813,-4.34876
644.816,-0.644937
645.819,1.58114
646.823,12.1083
647.826,-2.43789
648.829,0.570356
649.833,-2.59817
650.836,-4.01652
651.839,9.53327
652.843,3.53897
653.846,0.0354237
654.849,-6.7027
655.853,3.66703
656.856,-2.87664
657.86,5.77203
658.863,-0.151418
659.866,-5.74085
660.87,-4.83576
661.873,5.44455
662.876,-3.54858
663.88,-2.83857
664.883,3.63708
665.886,-6.63155
666.89,2.51755
667.893,4.10489
668.896,-1.33156
669.9,9.01407
670.903,-1.80393
671.906,-1.14445
672.91,4.43404
673.913,2.63098
674.916,1.30055
675.92,1.66631
676.923,-3.58678
677.926,-2.8479
678.93,7.21235
679.933,-0.730715
680.936,1.91393
681.94,-0.65032
682.943,5.07046
683.946,0.191489
684.95,-6.79275
685.953,-3.25027
686.957,9.63965
687.96,-4.75599
688.963,2.80021
689.967,-2.93856
690.97,-1.46383
691.973,-1.45049
692.977,-2.91356
693.98,-6.05978
694.983,-0.535468
695.987,-0.526977
696.99,1.46687
697.993,9.52648
698.997,-2.5578
700.0,-1.37904

File: experiment_09_measurement.csv
Wavelength (nm),Intensity (a.u.)
400.0,4.17811
401.003,6.3045
402.007,2.38368
403.01,3.72058
404.013,-4.49464
405.017,1.08819
406.02,-9.21532
407.023,0.858764
408.027,0.451328
409.03,-6.63968
410.033,-0.673752
411.037,-6.86852
412.04,3.00444
413.043,6.91947
414.047,11.3211
415.05,-3.05691
416.054,-13.7174
417.057,0.912643
418.06,2.51912
419.064,3.32029
420.067,7.32537
421.07,-4.05666
422.074,0.322131
423.077,1.55095
424.08,-2.24209
425.084,-4.53793
426.087,3.95224
427.09,8.60335
428.094,-4.03155
429.097,5.30605
430.1,2.31435
431.104,-3.56949
432.107,7.82289
433.11,-1.30982
434.114,0.532386
435.117,5.53413
436.12,2.49702
437.124,-5.92564
438.127,4.50338
439.13,-1.90412
440.134,0.808443
441.137,3.0907
442.14,13.9292
443.144,13.1313
444.147,4.21237
445.151,-6.6455
446.154,11.7409
447.157,7.71719
448.161,7.3216
449.164,1.91913
450.167,7.34718
451.171,11.8968
452.174,11.7081
453.177,13.4575
454.181,3.31716
455.184,8.41246
456.187,11.6036
457.191,21.4171
458.194,7.92211
459.197,17.7749
460.201,24.9678
461.204,24.1936
462.207,32.1405
463.211,25.3181
464.214,29.3149
465.217,35.1171
466.221,21.7666
467.224,28.3774
468.227,29.6818
469.231,43.99
470.234,31.1005
471.237,43.5501
472.241,44.7349
473.244,38.0727
474.247,44.8253
475.251,57.4815
476.254,54.5772
477.258,60.3548
478.261,54.7296
479.264,62.2675
480.268,61.4063
481.271,75.5928
482.274,78.9683
483.278,71.5663
484.281,81.6705
485.284,82.7481
486.288,90.3551
487.291,97.2
488.294,101.391
489.298,101.544
490.301,107.73
491.304,102.005
492.308,115.067
493.311,121.003
494.314,116.745
495.318,128.165
496.321,124.888
497.324,127.785
498.328,140.323
499.331,144.666
500.334,146.305
501.338,157.474
502.341,148.939
503.344,156.652
504.348,158.454
505.351,150.707
506.355,153.081
507.358,166.913
508.361,174.49
509.365,171.933
510.368,182.314
511.371,172.77
512.375,176.562
513.378,165.914
514.381,182.473
515.385,189.034
516.388,190.696
517.391,195.731
518.395,185.954
519.398,193.457
520.401,192.371
521.405,186.745
522.408,192.157
523.411,189.185
524.415,187.445
525.418,180.676
526.421,191.568
527.425,191.279
528.428,182.254
529.431,193.9
530.435,189.887
531.438,187.021
532.441,175.467
533.445,171.41
534.448,182.999
535.452,181.129
536.455,175.155
537.458,179.731
538.462,170.053
539.465,161.267
540.468,168.969
541.472,159.897
542.475,152.74
543.478,161.1
544.482,145.03
545.485,141.728
546.488,140.808
547.492,137.826
548.495,128.064
549.498,136.656
550.502,122.875
551.505,120.57
552.508,125.242
553.512,113.905
554.515,108.914
555.518,110.848
556.522,99.7829
557.525,98.851
558.528,92.8801
559.532,90.2464
560.535,85.1685
561.538,80.881
562.542,73.0504
563.545,86.1868
564.548,74.3409
565.552,73.8375
566.555,68.7627
567.559,69.5198
568.562,61.7127
569.565,58.8798
570.569,48.2941
571.572,49.8801
572.575,45.3721
573.579,50.931
574.582,33.0678
575.585,41.3701
576.589,38.1815
577.592,32.0079
578.595,30.2112
579.599,33.635
580.602,28.9372
581.605,27.3925
582.609,23.1716
583.612,26.7081
584.615,19.6896
585.619,23.0207
586.622,11.5246
587.625,25.1006
588.629,16.9487
589.632,14.8689
590.635,14.767
591.639,16.1129
592.642,18.8987
593.645,0.759741
594.649,8.4458
595.652,18.4794
596.656,10.0483
597.659,9.26013
598.662,6.57476
599.666,3.6418
600.669,5.57153
601.672,6.9881
602.676,11.179
603.679,4.39822
604.682,2.61962
605.686,6.9215
606.689,10.4759
607.692,-4.72469
608.696,-4.87849
609.699,0.515179
610.702,-7.38347
611.706,-1.06653
612.709,3.59439
613.712,-2.10251
614.716,11.3703
615.719,8.14831
616.722,-0.0794646
617.726,-4.0785
618.729,-4.48345
619.732,-0.591187
620.736,0.438676
621.739,4.84575
622.742,1.38988
623.746,3.72606
624.749,-7.77493
625.753,-0.566967
626.756,-7.83763
627.759,10.6779
628.763,7.9394
629.766,4.58384
630.769,-1.09859
631.773,6.41747
632.776,5.85479
633.779,0.608222
634.783,0.634987
635.786,-1.48835
636.789,-9.66397
637.793,-1.47754
638.796,-0.700909
639.799,-7.47203
640.803,6.5055
641.806,-1.49505
642.809,-0.176683
643.813,3.54093
644.816,-0.859806
645.819,-8.3218
646.823,8.60646
647.826,-0.649539
648.829,4.75999
649.833,1.93205
650.836,-10.5038
651.839,-4.46301
652.843,1.64657
653.846,3.39184
654.849,-3.6377
655.853,-5.43782
656.856,-1.16843
657.86,-0.708187
658.863,-5.90995
659.866,-2.10939
660.87,-3.944
661.873,-4.27832
662.876,-4.38147
663.88,8.75841
664.883,-0.743529
665.886,-2.50283
666.89,4.09933
667.893,-5.28433
668.896,0.475183
669.9,4.47492
670.903,0.778247
671.906,-5.38584
672.91,0.0417046
673.913,5.48963
674.916,-1.36735
675.92,9.69315
676.923,2.29617
677.926,-8.66906
678.93,-3.47601
679.933,-7.80202
680.936,-2.94295
681.94,0.461612
682.943,10.1419
683.946,0.490469
684.95,-4.83071
685.953,4.66393
686.957,10.2176
687.96,-4.6721
688.963,-10.909
689.967,18.1176
690.97,7.33134
691.973,4.05356
692.977,0.900432
693.98,-2.25035
694.983,4.68732
695.987,4.37555
696.99,-1.52176
697.993,-6.58459
698.997,-6.1275
700.0,8.11355