Folder: materials-zone-api-examples/examples/quantum_dot_api_example/measurements (part 3)

File: experiment_10_measurement.csv
Wavelength (nm),Intensity (a.u.)
400.0,6.75217
401.003,-0.815617
402.007,-5.26605
403.01,4.15039
404.013,1.34087
405.017,-10.3427
406.02,1.69581
407.023,-6.61637
408.027,2.78207
409.03,-1.62064
410.033,0.648942
411.037,3.5265
412.04,-6.712
413.043,-2.06459
414.047,1.05567
415.05,1.35958
416.054,1.24863
417.057,-4.8193
418.06,6.28287
419.064,-0.543767
420.067,-5.07235
421.07,-0.126494
422.074,-0.0328477
423.077,-2.97423
424.08,-4.77653
425.084,8.21464
426.087,4.37804
427.09,-0.197837
428.094,-8.65223
429.097,6.83831
430.1,-7.92931
431.104,-7.58402
432.107,-1.28772
433.11,10.3905
434.114,-4.49938
435.117,-1.96562
436.12,-3.79825
437.124,0.154642
438.127,-1.04205
439.13,2.16113
440.134,-2.46901
441.137,-0.85591
442.14,-6.4355
443.144,-3.03103
444.147,-8.91195
445.151,10.5893
446.154,3.88139
447.157,-4.66275
448.161,4.18993
449.164,-3.06055
450.167,-10.3613
451.171,-4.75236
452.174,1.95717
453.177,1.102
454.181,2.99451
455.184,-1.38225
456.187,-1.79136
457.191,-4.03842
458.194,-0.00456014
459.197,4.15976
460.201,3.9813
461.204,6.35099
462.207,-2.41883
463.211,-9.9587
464.214,-0.210235
465.217,-4.2966
466.221,-0.124577
467.224,5.52346
468.227,8.84741
469.231,3.26403
470.234,-2.21582
471.237,1.54965
472.241,4.49266
473.244,-2.78648
474.247,12.4406
475.251,5.14922
476.254,10.9715
477.258,17.5024
478.261,17.3319
479.264,13.4225
480.268,20.9351
481.271,26.1493
482.274,45.4122
483.278,28.9703
484.281,36.7209
485.284,51.3551
486.288,53.8229
487.291,64.5855
488.294,71.8487
489.298,76.5117
490.301,91.3036
491.304,96.1571
492.308,112.423
493.311,121.913
494.314,138.401
495.318,157.888
496.321,160.664
497.324,179.462
498.328,190.551
499.331,203.889
500.334,214.258
501.338,228.328
502.341,249.701
503.344,247.387
504.348,255.018
505.351,276.065
506.355,268.764
507.358,279.168
508.361,277.451
509.365,286.325
510.368,288.272
511.371,278.531
512.375,288.102
513.378,275.488
514.381,270.726
515.385,257.012
516.388,254.763
517.391,250.359
518.395,236.562
519.398,220.635
520.401,201.349
521.405,192.535
522.408,177.188
523.411,170.502
524.415,148.645
525.418,141.423
526.421,125.046
527.425,121.211
528.428,109.063
529.431,88.7551
530.435,84.0891
531.438,71.7096
532.441,63.6237
533.445,55.396
534.448,48.269
535.452,41.9308
536.455,43.9705
537.458,32.8152
538.462,22.3125
539.465,26.5003
540.468,16.8124
541.472,12.5997
542.475,15.8369
543.478,13.425
544.482,16.8186
545.485,9.98404
546.488,18.1134
547.492,-1.57
548.495,4.02715
549.498,-0.461244
550.502,3.71353
551.505,4.03612
552.508,2.70799
553.512,-2.6873
554.515,-2.65894
555.518,5.29198
556.522,-6.23842
557.525,-4.28005
558.528,-4.5579
559.532,6.81587
560.535,-12.4827
561.538,-0.0873844
562.542,9.30865
563.545,-1.97231
564.548,4.39668
565.552,-1.87505
566.555,3.82695
567.559,-5.14198
568.562,-3.30132
569.565,-3.20042
570.569,8.22097
571.572,5.48257
572.575,-0.200995
573.579,1.21361
574.582,3.89952
575.585,-4.2927
576.589,-0.906255
577.592,-1.36057
578.595,-5.16168
579.599,1.14377
580.602,-3.70392
581.605,-0.255544
582.609,-0.765933
583.612,-4.71424
584.615,3.40091
585.619,0.410886
586.622,-7.09809
587.625,4.03245
588.629,9.5165
589.632,3.43018
590.635,1.90194
591.639,0.491771
592.642,-5.00007
593.645,0.280574
594.649,-2.86268
595.652,-3.36276
596.656,-5.94045
597.659,1.97209
598.662,8.47972
599.666,2.78171
600.669,1.31331
601.672,-7.71066
602.676,-0.214874
603.679,-5.63747
604.682,4.5479
605.686,1.54577
606.689,3.65776
607.692,-5.9556
608.696,-4.10173
609.699,2.89692
610.702,-1.37948
611.706,7.16148
612.709,-1.56893
613.712,4.98003
614.716,6.15745
615.719,-1.74983
616.722,-4.76045
617.726,5.44569
618.729,8.44156
619.732,4.38509
620.736,-0.853536
621.739,9.61399
622.742,-6.42466
623.746,1.78052
624.749,-0.900768
625.753,3.07949
626.756,6.61364
627.759,-0.996824
628.763,2.10872
629.766,6.44818
630.769,-2.40962
631.773,2.87176
632.776,-2.555
633.779,0.966889
634.783,10.5506
635.786,-5.15985
636.789,3.08106
637.793,7.01666
638.796,2.71305
639.799,4.612
640.803,0.729046
641.806,-4.78804
642.809,-2.47619
643.813,8.1068
644.816,-2.01017
645.819,9.92546
646.823,6.95153
647.826,-2.85606
648.829,-3.63122
649.833,7.97358
650.836,-7.23048
651.839,6.24269
652.843,6.36664
653.846,6.63229
654.849,1.59775
655.853,-1.67851
656.856,12.5254
657.86,-6.71515
658.863,7.02755
659.866,-6.24603
660.87,-3.19717
661.873,-5.7647
662.876,-2.50166
663.88,5.69575
664.883,2.63282
665.886,-8.43827
666.89,6.01418
667.893,-1.20991
668.896,-9.54275
669.9,0.456689
670.903,-1.12062
671.906,-9.61711
672.91,-6.57011
673.913,2.93957
674.916,-0.222972
675.92,-6.60676
676.923,-0.456652
677.926,-15.329
678.93,7.29402
679.933,-8.62782
680.936,-1.58265
681.94,-8.44173
682.943,-15.4744
683.946,-4.61291
684.95,-6.66818
685.953,4.42214
686.957,-8.54721
687.96,2.54101
688.963,-8.91001
689.967,-6.82735
690.97,-2.01733
691.973,-6.24159
692.977,0.628006
693.98,1.23917
694.983,-6.88597
695.987,-1.79211
696.99,-0.17477
697.993,-9.63564
698.997,5.12513
700.0,0.813424