Folder: materials-zone-api-examples/examples/quantum_dot_api_example/measurements

Note: examples/quantum_dot_api_example/README.md
# Quantum Dot API Example

This repository provides a simple but complete example of how to use the MaterialsZone API to create tables, protocols and parameters, upload material and experiment data from an Excel file, perform analysis on measurement data, and upload both measurement files and analysis results. The example is from the field of quantum dots, but the code can be applied to any domain.

## ğŸ§° Prerequisites

- Python 3.8+
- A valid API key for the MaterialsZone REST API
- Access to an existing folder in the platform (you'll provide the folder name)

## ğŸ“¦ Setup Instructions

1. **Clone this repository (if you haven't already)**:
   ```bash
   git clone https://github.com/materialscloud/materials-zone-api-examples.git
   cd materials-zone-api-examples
   ```

2. **Switch to the example's directory**:
   ```bash
   cd examples/quantum_dot_api_example/
   ```

3. **(Recommended) Create and activate a virtual environment**:
   ```bash
   python -m venv venv
   source venv/bin/activate  # On Windows: venv\Scripts\activate
   ```

4. **Install dependencies**:
   ```bash
   pip install -r requirements.txt
   ```

5. **Set your API key** (recommended via environment variable):
   
   - **macOS / Linux**  
     ```bash
     export MZ_API_KEY="your_api_key_here"
     ```

   - **Windows (Command Prompt)**  
     ```cmd
     set MZ_API_KEY=your_api_key_here
     ```

   - **Windows (PowerShell)**  
     ```powershell
     $env:MZ_API_KEY = "your_api_key_here"
     ```

6. **Review the input data**:
   - `quantum_dots_example.xlsx` contains two sheets:
     - **Materials** â€” List of quantum dot materials with properties like band gap, size, and quantum yield.
     - **Experiments** â€” Fabrication experiments using the materials, with processing parameters and results.
   - A folder named `measurements/` with one CSV file per experiment (emission spectra data).
   - Note: all data is synthetic data.

7. **Create a folder in MaterialsZone**:
   - Open the MaterialsZone app.
   - Create a folder for this project.

8. **Set the `FOLDER_TITLE` variable**
   - Set the `FOLDER_TITLE` variable in the Configuration section of `upload_quantum_dots_data.py` to the folder's title.

9. **Run the script**:
   ```bash
   python upload_quantum_dots_data.py
   ```

10. **Check out the results**:

    Open the MaterialsZone app and check out the two newly created tables.

## ğŸš€ What the Script Does

1. **Looks up the folder ID** from the name you enter.
2. **Checks if the 'Materials' and 'Experiments' tables exist**, creates them if not.
3. **Defines the necessary parameters** in each table.
4. **Uploads one item at a time** using the REST API:
   - Each material with its properties
   - Each experiment with its setup and result
5. **Analyzes measurement data** (e.g., finds the peak wavelength in a spectrum).
6. **Uploads the analysis result** back into the experiment table as a new item.

## ğŸ“ File Structure

```
quantum-dot-api-example/
â”œâ”€â”€ quan

File: experiment_01_measurement.csv
Wavelength (nm),Intensity (a.u.)
400.0,1.06457
401.003,8.60983
402.007,-3.84871
403.01,5.18053
404.013,0.561127
405.017,-7.04075
406.02,-3.15801
407.023,0.723953
408.027,1.32361
409.03,-1.60691
410.033,3.36935
411.037,9.05155
412.04,2.4085
413.043,-1.75221
414.047,-1.69503
415.05,2.41408
416.054,-7.93889
417.057,-2.60383
418.06,-2.12178
419.064,2.54576
420.067,-1.85105
421.07,7.43686
422.074,-3.45653
423.077,-4.9675
424.08,-7.61004
425.084,-7.59406
426.087,1.45413
427.09,4.03777
428.094,-8.39228
429.097,1.48517
430.1,-2.28312
431.104,8.40385
432.107,-3.80269
433.11,4.41719
434.114,1.26203
435.117,-0.381249
436.12,-3.22072
437.124,-1.48505
438.127,-3.8129
439.13,-4.41219
440.134,7.83477
441.137,-6.02991
442.14,-2.1317
443.144,-8.41237
444.147,-1.04615
445.151,0.115271
446.154,-4.84146
447.157,0.132517
448.161,-0.313375
449.164,4.96277
450.167,-2.6068
451.171,-5.74597
452.174,-4.77203
453.177,9.33166
454.181,6.67845
455.184,0.56563
456.187,-0.551707
457.191,-1.45547
458.194,6.23709
459.197,5.89741
460.201,6.48972
461.204,0.547622
462.207,-3.60565
463.211,-0.785748
464.214,12.3162
465.217,2.18551
466.221,3.86298
467.224,3.21429
468.227,-0.872896
469.231,3.68996
470.234,-6.53501
471.237,-1.70753
472.241,9.04986
473.244,9.21884
474.247,-0.243896
475.251,15.4592
476.254,5.16527
477.258,0.400304
478.261,7.22077
479.264,7.43427
480.268,2.50186
481.271,9.96984
482.274,11.808
483.278,17.1096
484.281,13.3014
485.284,17.8879
486.288,24.4524
487.291,33.5666
488.294,32.0188
489.298,37.5261
490.301,41.0121
491.304,51.3027
492.308,62.8448
493.311,73.183
494.314,71.4476
495.318,71.0128
496.321,88.5214
497.324,94.1865
498.328,106.279
499.331,117.824
500.334,110.67
501.338,128.277
502.341,131.654
503.344,150.385
504.348,147.2
505.351,169.347
506.355,176.287
507.358,178.696
508.361,183.581
509.365,195.216
510.368,208.242
511.371,203.9
512.375,209.977
513.378,217.213
514.381,216.96
515.385,216.214
516.388,222.535
517.391,221.396
518.395,227.713
519.398,221.157
520.401,225.222
521.405,220.754
522.408,220.18
523.411,209.941
524.415,203.599
525.418,199.549
526.421,197.871
527.425,180.7
528.428,183.692
529.431,171.558
530.435,167.43
531.438,149.783
532.441,143.575
533.445,126.888
534.448,134.751
535.452,126.091
536.455,110.265
537.458,93.0021
538.462,96.9914
539.465,86.1468
540.468,84.2068
541.472,76.2097
542.475,68.3047
543.478,58.5448
544.482,51.2271
545.485,54.9667
546.488,39.2871
547.492,37.7039
548.495,29.3971
549.498,39.0313
550.502,17.8667
551.505,26.3455
552.508,22.6199
553.512,23.523
554.515,11.4701
555.518,16.5606
556.522,13.195
557.525,11.7516
558.528,11.4085
559.532,10.1589
560.535,1.9391
561.538,8.00745
562.542,-2.71358
563.545,0.982417
564.548,4.77289
565.552,-9.34175
566.555,6.68995
567.559,2.23987
568.562,-1.80277
569.565,-3.04228
570.569,5.28871
571.572,0.407564
572.575,6.45234
573.579,-0.249516
574.582,13.9655
575.585,-1.95212
576.589,1.73383
577.592,-0.915259
578.595,1.07108
579.599,1.28107
580.602,-6.56631
581.605,-2.76744
582.609,2.11466
583.612,2.35959
584.615,-9.342
585.619,4.5663
586.622,8.97428
587.625,-9.88725
588.629,-4.78377
589.632,5.1004
590.635,-0.874955
591.639,3.36595
592.642,-5.18181
593.645,-7.31911
594.649,4.71418
595.652,5.7037
596.656,0.78417
597.659,-3.22458
598.662,-8.97604
599.666,3.14896
600.669,4.01281
601.672,2.48517
602.676,-2.44448
603.679,-1.94689
604.682,-0.119905
605.686,5.20054
606.689,-1.16091
607.692,-7.05139
608.696,3.35208
609.699,3.6608
610.702,9.43519
611.706,9.38317
612.709,3.9518
613.712,6.30967
614.716,6.39853
615.719,4.65596
616.722,0.658846
617.726,-0.72222
618.729,-7.51835
619.732,4.01433
620.736,4.00688
621.739,8.77301
622.742,1.6036
623.746,-1.15755
624.749,8.03714
625.753,-4.22456
626.756,4.10002
627.759,-5.82345
628.763,-2.28331
629.766,4.64741
630.769,-1.13771
631.773,-0.444564
632.776,4.74223
633.779,-3.1549
634.783,-3.33983
635.786,-5.79067
636.789,-1.4237
637.793,-2.2119
638.796,1.84501
639.799,-1.79677
640.803,4.43924
641.806,-4.75778
642.809,-2.6621
643.813,0.913689
644.816,-0.718701
645.819,-1.63381
646.823,4.86052
647.826,-0.540466
648.829,11.0678
649.833,-3.84904
650.836,3.09739
651.839,5.06759
652.843,-5.06539
653.846,0.20862
654.849,1.62307
655.853,-1.84318
656.856,5.57604
657.86,2.31892
658.863,1.42969
659.866,-3.04532
660.87,-0.447508
661.873,-5.49262
662.876,0.265382
663.88,-2.59451
664.883,0.286548
665.886,-0.30387
666.89,-6.03357
667.893,-4.15877
668.896,-3.39103
669.9,-8.47504
670.903,7.69682
671.906,-2.32345
672.91,-9.69789
673.913,-0.755085
674.916,1.39922
675.92,6.82243
676.923,11.2654
677.926,5.59646
678.93,-4.11965
679.933,2.20637
680.936,-1.11937
681.94,-8.48166
682.943,-2.17205
683.946,-2.43105
684.95,6.56606
685.953,-7.59686
686.957,4.44916
687.96,0.758787
688.963,-9.06161
689.967,0.572514
690.97,-2.60743
691.973,7.0515
692.977,-4.72386
693.98,0.468422
694.983,-3.01436
695.987,7.92512
696.99,-2.45291
697.993,-3.32027
698.997,5.91971
700.0,-1.3484

File: experiment_02_measurement.csv
Wavelength (nm),Intensity (a.u.)
400.0,-8.47902
401.003,-4.59214
402.007,3.80754
403.01,-3.80937
404.013,-2.39499
405.017,6.66721
406.02,4.06669
407.023,-5.72751
408.027,-6.55078
409.03,7.90866
410.033,4.41909
411.037,3.16348
412.04,3.54737
413.043,-1.37746
414.047,-1.83681
415.05,-8.44823
416.054,-0.369116
417.057,2.24103
418.06,-0.430297
419.064,-1.4314
420.067,3.19708
421.07,4.47799
422.074,7.22279
423.077,0.280183
424.08,-4.35625
425.084,3.8986
426.087,1.4379
427.09,5.9349
428.094,-3.36907
429.097,-1.3402
430.1,7.97676
431.104,-4.6856
432.107,-0.570617
433.11,-6.15438
434.114,2.97861
435.117,4.30231
436.12,1.61888
437.124,-7.00878
438.127,-0.278394
439.13,-3.79982
440.134,0.812923
441.137,1.80165
442.14,-1.45837
443.144,-1.10901
444.147,11.7016
445.151,-5.20841
446.154,-7.32877
447.157,4.76212
448.161,1.66198
449.164,-3.20268
450.167,-6.39962
451.171,-0.953625
452.174,-6.73514
453.177,-3.98648
454.181,2.19041
455.184,-1.36244
456.187,3.6807
457.191,4.58897
458.194,12.6245
459.197,4.98257
460.201,0.85474
461.204,-0.419615
462.207,11.458
463.211,0.105585
464.214,-2.95856
465.217,7.70536
466.221,1.31324
467.224,6.84308
468.227,-1.0653
469.231,6.5062
470.234,5.74735
471.237,2.57611
472.241,-2.60355
473.244,-18.4062
474.247,-1.00493
475.251,2.50979
476.254,-3.89732
477.258,-2.13996
478.261,6.49554
479.264,4.80441
480.268,-2.13968
481.271,-4.5611
482.274,10.195
483.278,1.71177
484.281,11.5575
485.284,2.40012
486.288,1.78244
487.291,-2.08349
488.294,-3.91938
489.298,-1.4922
490.301,13.0783
491.304,5.90301
492.308,4.83032
493.311,2.59903
494.314,-0.705708
495.318,16.6339
496.321,6.98288
497.324,20.8293
498.328,13.3508
499.331,10.9141
500.334,16.376
501.338,19.6471
502.341,10.0372
503.344,25.1055
504.348,18.8222
505.351,31.3832
506.355,39.9496
507.358,45.6023
508.361,48.9798
509.365,49.9526
510.368,59.5897
511.371,66.6484
512.375,74.5302
513.378,71.7653
514.381,78.6908
515.385,81.8774
516.388,95.6647
517.391,107.931
518.395,116.324
519.398,122.072
520.401,135.52
521.405,148.529
522.408,155.06
523.411,178.131
524.415,178.249
525.418,203.668
526.421,207.384
527.425,230.86
528.428,233.039
529.431,251.86
530.435,268.395
531.438,289.989
532.441,285.785
533.445,307.75
534.448,321.325
535.452,344.837
536.455,343.874
537.458,373.077
538.462,383.624
539.465,394.771
540.468,414.001
541.472,419.775
542.475,422.507
543.478,439.041
544.482,445.019
545.485,455.826
546.488,473.172
547.492,477.543
548.495,476.484
549.498,476.43
550.502,482.596
551.505,482.484
552.508,494.572
553.512,482.845
554.515,485.295
555.518,477.871
556.522,475.874
557.525,460.548
558.528,454.095
559.532,456.537
560.535,461.404
561.538,446.863
562.542,433.927
563.545,411.525
564.548,398.282
565.552,400.372
566.555,376.399
567.559,374.111
568.562,352.656
569.565,335.367
570.569,326.922
571.572,310.66
572.575,304.22
573.579,286.838
574.582,262.391
575.585,243.313
576.589,236.31
577.592,215.494
578.595,206.519
579.599,194.179
580.602,185.398
581.605,163.694
582.609,152.843
583.612,145.519
584.615,135.933
585.619,126.017
586.622,116.079
587.625,105.409
588.629,91.9923
589.632,91.5085
590.635,88.1597
591.639,73.1718
592.642,68.4092
593.645,65.2258
594.649,47.4362
595.652,48.3477
596.656,37.9883
597.659,43.9747
598.662,45.7374
599.666,25.5774
600.669,20.2564
601.672,18.0832
602.676,7.75443
603.679,29.6643
604.682,27.402
605.686,17.1725
606.689,19.6888
607.692,9.29171
608.696,11.6575
609.699,2.12046
610.702,18.0084
611.706,7.70439
612.709,10.2926
613.712,-3.88733
614.716,1.03254
615.719,6.31045
616.722,1.51663
617.726,6.36173
618.729,6.64755
619.732,-4.37624
620.736,-1.162
621.739,2.25717
622.742,-7.58793
623.746,-5.22646
624.749,-3.54735
625.753,0.388151
626.756,0.129784
627.759,-4.13928
628.763,7.01307
629.766,-1.62065
630.769,-6.37143
631.773,0.0553383
632.776,4.44732
633.779,4.26505
634.783,4.32016
635.786,-1.50446
636.789,-4.32583
637.793,7.11756
638.796,-12.5458
639.799,0.459351
640.803,0.854491
641.806,-1.25931
642.809,-3.51429
643.813,-2.22185
644.816,-9.10413
645.819,6.63097
646.823,6.0313
647.826,-5.26044
648.829,-7.01676
649.833,-1.69068
650.836,8.32567
651.839,8.14092
652.843,6.42143
653.846,-6.10387
654.849,6.5126
655.853,3.20338
656.856,4.42758
657.86,6.0068
658.863,7.40627
659.866,-1.03133
660.87,3.68074
661.873,-6.44729
662.876,-4.08865
663.88,-4.80429
664.883,6.80869
665.886,0.0375154
666.89,0.477603
667.893,1.14007
668.896,5.64616
669.9,-1.09388
670.903,-7.08984
671.906,3.19025
672.91,-4.06104
673.913,-0.965403
674.916,-5.52471
675.92,3.57973
676.923,0.370677
677.926,6.31936
678.93,-1.31943
679.933,2.77343
680.936,8.05555
681.94,-0.367749
682.943,0.0738249
683.946,-1.86178
684.95,4.65368
685.953,2.1007
686.957,-6.29428
687.96,-2.4836
688.963,9.36084
689.967,-4.54456
690.97,0.107271
691.973,1.53647
692.977,-7.88569
693.98,-4.11277
694.983,-0.58315
695.987,-0.0967098
696.99,-2.32869
697.993,-7.09721
698.997,4.38184
700.0,1.43571

File: experiment_03_measurement.csv
Wavelength (nm),Intensity (a.u.)
400.0,-8.21484
401.003,-4.50075
402.007,-7.83881
403.01,-3.83061
404.013,-5.88388
405.017,0.0243976
406.02,9.87006
407.023,0.226645
408.027,1.24197
409.03,-9.33969
410.033,-5.44104
411.037,3.41384
412.04,-0.284103
413.043,0.392213
414.047,4.28812
415.05,-9.75306
416.054,-0.428936
417.057,-6.65915
418.06,-9.91029
419.064,2.38184
420.067,2.06716
421.07,5.66236
422.074,-0.689599
423.077,-2.01859
424.08,-4.37166
425.084,1.39646
426.087,5.5177
427.09,6.00316
428.094,4.58117
429.097,-8.66125
430.1,-0.395935
431.104,5.29772
432.107,-8.13029
433.11,2.78022
434.114,13.0769
435.117,0.00189489
436.12,5.05069
437.124,-1.98065
438.127,-2.74798
439.13,-2.55115
440.134,-4.67331
441.137,8.23412
442.14,-2.28426
443.144,-4.88593
444.147,-5.55771
445.151,13.6207
446.154,3.06852
447.157,-2.22151
448.161,0.985811
449.164,-0.0564118
450.167,7.49019
451.171,-7.07467
452.174,-2.92448
453.177,6.38605
454.181,-5.96015
455.184,-5.76071
456.187,0.693072
457.191,2.77094
458.194,6.80345
459.197,10.8743
460.201,3.67442
461.204,0.266662
462.207,-4.72943
463.211,5.15981
464.214,-0.431461
465.217,5.9229
466.221,2.97556
467.224,-4.38871
468.227,5.3194
469.231,1.37781
470.234,4.1782
471.237,-7.9987
472.241,0.997381
473.244,-2.04299
474.247,1.36367
475.251,4.02698
476.254,5.70541
477.258,4.38683
478.261,-5.68884
479.264,4.04229
480.268,-2.5277
481.271,6.40554
482.274,9.37475
483.278,6.24899
484.281,-10.0327
485.284,3.97869
486.288,-0.930565
487.291,-6.21154
488.294,6.92219
489.298,5.709
490.301,0.419333
491.304,-4.32796
492.308,2.22276
493.311,-1.43998
494.314,-1.14485
495.318,7.48501
496.321,3.3567
497.324,-3.65016
498.328,3.59115
499.331,4.07208
500.334,7.86678
501.338,-4.82185
502.341,5.55242
503.344,1.57713
504.348,11.0634
505.351,-1.78644
506.355,-9.88271
507.358,-0.12067
508.361,-4.91906
509.365,6.02625
510.368,8.24941
511.371,-5.83212
512.375,-3.17044
513.378,-1.46336
514.381,-0.00941791
515.385,5.67532
516.388,-2.47858
517.391,-0.972497
518.395,-2.18953
519.398,-0.496728
520.401,4.9997
521.405,-4.79035
522.408,-6.67536
523.411,-14.0291
524.415,-2.14421
525.418,6.74744
526.421,3.26979
527.425,9.23985
528.428,3.72441
529.431,-6.30839
530.435,0.199993
531.438,5.32229
532.441,-0.645296
533.445,1.04712
534.448,4.36326
535.452,-0.308615
536.455,0.479242
537.458,2.63409
538.462,2.81417
539.465,5.66762
540.468,-2.22215
541.472,11.2996
542.475,4.02687
543.478,-0.24577
544.482,6.00736
545.485,8.53777
546.488,8.91248
547.492,10.8009
548.495,2.99275
549.498,14.1505
550.502,15.313
551.505,18.038
552.508,14.4596
553.512,0.473949
554.515,19.2825
555.518,21.415
556.522,15.7298
557.525,25.0376
558.528,28.7231
559.532,20.0991
560.535,29.2088
561.538,37.9929
562.542,49.5788
563.545,39.1441
564.548,43.8829
565.552,55.5603
566.555,51.5037
567.559,59.5532
568.562,53.7232
569.565,67.5096
570.569,70.1008
571.572,83.5759
572.575,85.4352
573.579,93.4207
574.582,101.73
575.585,97.6127
576.589,105.506
577.592,118.274
578.595,125.814
579.599,134.774
580.602,137.541
581.605,154.747
582.609,149.698
583.612,158.689
584.615,164.415
585.619,182.048
586.622,192.604
587.625,201.042
588.629,208.931
589.632,211.687
590.635,231.892
591.639,237.371
592.642,242.677
593.645,250.742
594.649,251.727
595.652,270.846
596.656,271.208
597.659,288.505
598.662,282.181
599.666,293.34
600.669,295.821
601.672,301.726
602.676,312.793
603.679,316.182
604.682,327.057
605.686,327.976
606.689,328.768
607.692,324.812
608.696,334.741
609.699,332.584
610.702,338.479
611.706,324.026
612.709,334.993
613.712,337.214
614.716,333.494
615.719,332.767
616.722,323.213
617.726,328.499
618.729,324.854
619.732,327.268
620.736,313.966
621.739,310.911
622.742,305.181
623.746,296.098
624.749,281.453
625.753,285.34
626.756,271.478
627.759,260.958
628.763,253.178
629.766,259.964
630.769,227.829
631.773,231.394
632.776,227.585
633.779,214.769
634.783,209.254
635.786,205.644
636.789,181.686
637.793,177.309
638.796,170.701
639.799,162.852
640.803,154.234
641.806,150.377
642.809,140.108
643.813,130.368
644.816,124.738
645.819,121.242
646.823,103.997
647.826,98.4172
648.829,98.9845
649.833,78.4465
650.836,89.5075
651.839,77.1721
652.843,66.7646
653.846,61.2016
654.849,56.0117
655.853,55.3573
656.856,53.4933
657.86,47.8899
658.863,47.1761
659.866,44.2872
660.87,33.8576
661.873,43.0225
662.876,25.7727
663.88,25.1233
664.883,19.646
665.886,24.6931
666.89,14.0653
667.893,24.1451
668.896,20.1857
669.9,16.5135
670.903,10.1837
671.906,5.68341
672.91,14.4033
673.913,14.2806
674.916,4.82598
675.92,9.82144
676.923,13.3662
677.926,15.1439
678.93,-3.89602
679.933,6.34154
680.936,0.0475832
681.94,5.02852
682.943,-0.14538
683.946,-0.318059
684.95,9.25734
685.953,5.65733
686.957,-5.0887
687.96,4.54856
688.963,-7.67728
689.967,-2.25102
690.97,-2.69732
691.973,5.16049
692.977,0.823628
693.98,-2.28669
694.983,4.20268
695.987,-1.91591
696.99,3.1161
697.993,6.35541
698.997,5.43719
700.0,6.27133

File: experiment_04_measurement.csv
Wavelength (nm),Intensity (a.u.)
400.0,-8.2029
401.003,2.69062
402.007,0.277583
403.01,3.87539
404.013,0.898093
405.017,-9.51744
406.02,-2.47049
407.023,5.08847
408.027,-15.4205
409.03,3.73082
410.033,-8.28977
411.037,-6.38667
412.04,-7.85013
413.043,3.00531
414.047,1.2457
415.05,-3.74261
416.054,1.05267
417.057,0.783999
418.06,-3.07201
419.064,-3.91773
420.067,-0.264477
421.07,-6.04567
422.074,-3.92974
423.077,0.0917784
424.08,0.855731
425.084,-4.88403
426.087,11.6157
427.09,-0.377403
428.094,3.77458
429.097,-1.58038
430.1,-4.45538
431.104,0.00104666
432.107,-5.34314
433.11,2.60016
434.114,-9.5152
435.117,-2.51671
436.12,3.28481
437.124,-4.48543
438.127,4.34535
439.13,-0.179992
440.134,-5.01045
441.137,6.11984
442.14,-1.47179
443.144,-0.292236
444.147,7.33374
445.151,-4.72678
446.154,4.00215
447.157,-2.00802
448.161,-6.14952
449.164,-11.8396
450.167,1.11538
451.171,-2.96909
452.174,-6.86649
453.177,-2.90185
454.181,-4.16822
455.184,-7.80195
456.187,8.51195
457.191,-4.64672
458.194,-2.80862
459.197,-7.51333
460.201,8.89351
461.204,-6.88488
462.207,-2.09649
463.211,4.75439
464.214,-0.471007
465.217,-6.15934
466.221,7.54716
467.224,-0.611687
468.227,4.57071
469.231,-5.842
470.234,7.65077
471.237,4.19334
472.241,-6.41807
473.244,-1.94995
474.247,-0.230569
475.251,6.50895
476.254,1.78455
477.258,-4.37719
478.261,-6.3992
479.264,-6.93265
480.268,1.17667
481.271,1.25836
482.274,0.639099
483.278,8.89268
484.281,0.543781
485.284,9.66249
486.288,7.28546
487.291,0.335469
488.294,-2.14393
489.298,3.17863
490.301,3.54201
491.304,-4.01363
492.308,4.19869
493.311,-5.93009
494.314,-5.26502
495.318,3.12953
496.321,0.274476
497.324,4.90087
498.328,2.28169
499.331,-3.7138
500.334,6.50821
501.338,3.53161
502.341,3.33218
503.344,-2.71846
504.348,0.80382
505.351,4.22757
506.355,-3.69633
507.358,-2.34822
508.361,5.28145
509.365,-2.77428
510.368,1.58762
511.371,-3.21364
512.375,4.58651
513.378,2.26193
514.381,-0.591869
515.385,2.0718
516.388,0.339001
517.391,-15.8019
518.395,-4.1984
519.398,-0.985557
520.401,-9.21939
521.405,1.5572
522.408,-3.40903
523.411,8.93945
524.415,-1.76187
525.418,3.54782
526.421,5.15721
527.425,1.89393
528.428,1.24569
529.431,-4.00901
530.435,-8.59077
531.438,-2.34269
532.441,-13.9112
533.445,0.0188055
534.448,2.35747
535.452,5.0087
536.455,-0.591869
537.458,4.70614
538.462,1.55373
539.465,4.63105
540.468,4.98328
541.472,0.293209
542.475,2.15849
543.478,-3.03116
544.482,-5.49845
545.485,3.70535
546.488,5.49517
547.492,8.5922
548.495,0.148633
549.498,5.16755
550.502,-1.75086
551.505,-4.5807
552.508,10.1012
553.512,-2.01459
554.515,2.77149
555.518,6.16128
556.522,-0.414632
557.525,5.40377
558.528,4.79725
559.532,6.10442
560.535,4.03705
561.538,15.3277
562.542,10.04
563.545,15.2716
564.548,14.4007
565.552,16.158
566.555,14.4012
567.559,15.6748
568.562,12.8265
569.565,5.95474
570.569,31.1989
571.572,38.205
572.575,33.9343
573.579,32.0335
574.582,42.509
575.585,41.637
576.589,49.6236
577.592,48.5874
578.595,58.982
579.599,78.6053
580.602,63.0557
581.605,88.1576
582.609,84.0636
583.612,95.4854
584.615,111.348
585.619,107.919
586.622,121.357
587.625,126.5
588.629,133.254
589.632,153.108
590.635,159.838
591.639,170.986
592.642,171.274
593.645,175.269
594.649,198.791
595.652,195
596.656,208.471
597.659,210.307
598.662,233.099
599.666,244.898
600.669,230.444
601.672,245.473
602.676,245.657
603.679,250.525
604.682,265.747
605.686,259.358
606.689,256.041
607.692,265.186
608.696,254.115
609.699,260.706
610.702,250.498
611.706,250.775
612.709,247.415
613.712,228.895
614.716,239.102
615.719,228.782
616.722,211.692
617.726,216.001
618.729,209.393
619.732,194.388
620.736,193.096
621.739,184.81
622.742,175.269
623.746,156.683
624.749,145.828
625.753,148.505
626.756,134.419
627.759,115.755
628.763,122.964
629.766,114.604
630.769,105.863
631.773,82.2792
632.776,75.3518
633.779,76.9857
634.783,73.5668
635.786,58.544
636.789,53.8743
637.793,46.5942
638.796,51.43
639.799,36.9651
640.803,23.0246
641.806,34.549
642.809,22.8378
643.813,27.9969
644.816,17.3173
645.819,15.6411
646.823,17.5991
647.826,10.3388
648.829,9.37478
649.833,9.88222
650.836,3.60829
651.839,2.4563
652.843,13.6677
653.846,12.7527
654.849,5.06036
655.853,1.93217
656.856,8.61336
657.86,1.77639
658.863,3.11132
659.866,8.27843
660.87,3.40397
661.873,7.43801
662.876,5.28698
663.88,1.40331
664.883,9.47533
665.886,0.758638
666.89,3.84903
667.893,5.35688
668.896,0.469985
669.9,-4.41286
670.903,-3.13744
671.906,1.36505
672.91,-5.94217
673.913,-0.00668793
674.916,-7.34492
675.92,0.675086
676.923,0.567022
677.926,-0.454264
678.93,8.84339
679.933,10.1002
680.936,-6.03395
681.94,4.7213
682.943,0.373373
683.946,-8.90864
684.95,4.47154
685.953,11.519
686.957,0.732907
687.96,-7.7585
688.963,-2.76771
689.967,-1.14255
690.97,0.179747
691.973,6.57196
692.977,-5.76367
693.98,-4.39056
694.983,-4.63785
695.987,-0.490182
696.99,2.04553
697.993,2.94568
698.997,8.24286
700.0,-2.8796